aX,aY,aZ,gX,gY,gZ
1.702,2.884,0.720,-54.040,-49.910,190.400
1.646,2.963,0.881,-36.890,-50.260,210.560
1.603,2.997,1.167,-30.240,-56.070,244.580
1.619,2.979,1.322,-30.800,-56.980,287.910
2.030,2.906,1.411,-86.590,-40.040,303.170
1.798,2.601,1.822,-94.850,-67.200,314.090
1.425,2.663,1.894,-88.970,-82.250,327.180
1.280,2.925,1.925,-59.850,-114.590,367.360
1.189,2.938,1.923,-41.300,-128.240,410.760
0.983,2.829,1.856,-10.150,-143.570,430.780
0.798,2.555,1.804,7.560,-146.300,465.010
0.685,2.144,1.721,20.160,-147.140,490.420
0.408,1.890,1.659,30.170,-157.220,499.310
0.106,1.224,1.551,32.410,-175.490,507.360
0.051,0.352,1.033,28.280,-179.130,504.910
0.009,-0.148,0.122,35.980,-183.260,502.390
0.031,-1.605,-0.651,42.210,-166.180,480.830
0.074,-3.754,-1.471,69.090,-156.380,403.270
0.650,-4.309,-1.540,-22.190,-106.610,391.160
1.016,-5.157,-0.918,-56.700,-97.230,290.710
0.769,-5.814,0.815,-108.780,-110.810,102.410
-0.111,-5.699,1.731,-219.100,-185.010,31.850
-0.945,-3.370,2.401,-232.260,-262.850,-15.610
-1.368,-2.418,1.694,-143.780,-283.080,-3.290
-2.185,-1.165,1.032,25.690,-273.980,15.750
-2.402,-0.609,-0.505,108.990,-208.670,59.780
-2.560,-0.769,-2.040,261.660,-163.030,67.550
-2.707,-1.194,-2.541,312.060,-61.950,90.650
-2.740,-1.831,-3.175,329.350,4.270,97.790
-2.568,-1.811,-3.317,233.660,48.370,127.960
-2.428,-2.182,-3.241,144.200,55.230,175.560
-2.250,-2.838,-2.893,87.150,34.930,198.380
-1.826,-3.256,-2.759,35.350,-25.200,186.340
-1.541,-3.776,-2.737,1.680,-86.030,127.610
-1.367,-3.485,-2.943,-57.680,-106.190,69.860
-0.889,-3.115,-3.269,-116.830,-115.920,52.430
-0.762,-2.429,-3.404,-133.840,-97.580,24.780
-0.826,-1.714,-3.627,-153.300,-65.590,6.160
-0.851,-1.226,-3.555,-125.090,3.570,4.410
-0.847,-0.425,-3.061,-93.870,56.910,11.480
-0.856,-0.124,-2.327,-29.890,76.720,25.830
-0.862,0.249,-1.946,15.890,111.020,33.740
-0.875,0.689,-0.992,30.520,116.060,62.790
-0.865,0.868,-0.321,58.520,110.390,101.220
-0.663,0.835,-0.211,105.490,110.600,115.220
-0.622,0.439,0.061,130.270,114.940,125.370
-0.379,0.364,0.126,170.450,140.910,144.410
-0.165,0.215,0.348,189.000,165.410,163.100
-0.263,-0.034,0.879,186.690,165.060,170.520
-0.270,-0.049,1.136,175.140,156.380,171.080
-0.213,-0.071,1.225,183.470,133.350,172.130
-0.222,-0.303,1.396,204.890,113.330,157.850
-0.184,-0.371,1.164,200.900,98.490,155.120
-0.173,-0.606,1.108,199.850,88.200,140.420
-0.176,-0.928,1.004,192.500,81.900,112.000
-0.184,-1.132,0.949,189.980,55.720,94.500
-0.004,-1.390,0.731,183.470,36.400,65.660
0.051,-1.610,0.486,169.190,29.260,39.130
0.090,-1.624,0.382,148.190,22.610,28.280
0.058,-1.622,0.273,136.360,17.990,13.650
0.043,-1.560,0.276,114.310,13.510,11.760
0.030,-1.391,0.286,91.140,0.140,13.790
0.019,-1.343,0.256,77.700,-15.330,16.730
0.008,-1.343,0.079,57.890,-20.860,16.100
0.006,-1.276,-0.024,45.010,-21.910,17.360
-0.004,-1.178,-0.157,39.480,-19.530,21.560
-0.010,-1.143,-0.184,35.000,-10.290,23.800
0.021,-1.103,-0.135,35.280,-2.660,25.970
0.025,-1.073,-0.050,36.820,1.190,24.990
0.045,-1.023,0.002,43.400,6.650,26.040
0.038,-0.961,0.065,50.050,12.250,26.250
0.023,-0.944,0.139,64.750,14.490,31.850
0.050,-0.921,0.137,84.140,18.900,28.140
0.007,-1.098,0.079,100.730,26.110,13.860
0.070,-1.078,0.146,118.160,28.420,11.760
0.188,-1.048,0.191,115.430,28.140,15.680
0.197,-1.192,0.259,108.360,24.780,16.450
0.235,-1.278,0.184,92.120,26.390,13.930
0.204,-1.372,0.139,92.960,35.700,7.770
0.231,-1.392,0.320,92.120,30.590,4.970
0.222,-1.440,0.370,79.800,21.140,1.120
0.165,-1.469,0.400,69.300,10.710,-4.620
0.160,-1.491,0.402,42.280,2.870,-11.480
0.142,-1.515,0.307,28.560,-4.550,-15.680
0.168,-1.531,0.214,18.620,-12.040,-23.940
0.143,-1.546,-0.011,0.630,-10.220,-31.500
0.131,-1.520,-0.069,-6.300,-9.730,-35.840
0.106,-1.562,-0.234,-6.440,0.700,-48.930
0.120,-1.518,-0.145,-16.730,-2.380,-51.940
0.074,-1.555,-0.216,-12.880,2.310,-72.870
0.024,-1.396,-0.279,-18.830,12.530,-77.070
0.090,-1.302,-0.180,-24.010,13.860,-77.000
0.064,-1.272,-0.182,-21.630,15.400,-78.400
0.043,-1.258,-0.119,-20.930,14.630,-81.550
0.019,-1.253,-0.090,-24.010,8.820,-82.390
0.055,-1.179,-0.133,-24.500,10.290,-79.380
0.049,-1.222,-0.124,-14.910,8.260,-84.770
0.024,-1.227,-0.122,1.610,7.560,-86.730
0.008,-1.166,-0.147,9.170,12.250,-88.760
-0.008,-1.148,-0.160,20.790,14.630,-81.550
0.068,-0.988,-0.259,28.840,44.310,-70.840
0.051,-1.034,-0.075,24.570,36.260,-75.530
-0.016,-1.021,0.023,36.400,28.140,-76.930
-0.015,-0.992,-0.017,58.100,13.790,-81.760
-0.004,-0.985,-0.100,58.240,9.310,-83.930
0.007,-0.960,-0.276,60.270,18.620,-84.070
0.014,-0.968,-0.292,84.350,29.260,-86.030
0.040,-1.005,-0.258,76.650,32.830,-91.210
0.054,-1.061,-0.227,76.160,39.270,-94.920
0.080,-1.161,-0.135,63.770,45.920,-101.150
0.102,-1.289,-0.061,26.460,48.510,-110.250
0.133,-1.333,-0.058,8.750,53.480,-116.130
0.120,-1.367,-0.033,12.320,56.980,-128.170
0.110,-1.365,0.078,35.350,57.540,-139.650
0.101,-1.375,0.169,49.280,52.920,-145.950
0.110,-1.407,0.281,51.030,44.800,-159.320
0.110,-1.414,0.326,50.820,40.530,-172.900
0.087,-1.385,0.335,46.340,32.550,-178.010
0.082,-1.313,0.335,42.280,25.340,-188.160

1.916,2.047,1.459,-50.750,-67.130,232.260
1.831,2.155,1.850,-103.810,-91.140,243.460
1.843,2.208,1.930,-132.160,-124.320,267.470
1.826,2.174,2.004,-208.250,-145.390,295.540
1.067,2.110,1.798,-205.030,-179.620,300.860
0.725,2.149,1.946,-203.910,-207.970,328.930
0.737,2.403,1.887,-207.620,-217.910,392.000
0.457,2.285,1.866,-184.100,-247.030,415.450
-0.127,1.727,1.794,-174.790,-281.120,438.970
-0.253,1.223,1.255,-129.220,-287.070,465.990
-0.456,0.825,0.939,-75.250,-292.250,476.980
-0.444,-0.208,0.242,-53.620,-280.630,500.500
-0.222,-0.841,-0.235,-39.830,-273.980,510.300
0.554,-2.288,-0.362,-52.640,-265.720,507.710
1.178,-3.694,-0.483,-69.790,-260.820,477.540
1.174,-4.458,-0.710,-120.750,-263.760,337.330
0.844,-6.634,-0.745,-146.160,-235.690,240.590
0.930,-6.312,-0.018,-246.960,-245.420,99.680
0.327,-6.243,-0.256,-214.200,-242.620,14.840
-1.049,-5.486,0.004,-192.080,-262.150,-132.440
-1.685,-3.805,-0.029,-182.210,-276.780,-210.910
-2.651,-2.749,-0.774,-139.300,-286.440,-211.750
-2.795,-0.902,-1.383,-32.830,-237.230,-118.020
-2.668,-0.244,-1.739,-6.020,-215.250,-32.550
-3.334,-0.480,-1.768,1.960,-221.410,-12.530
-3.451,-0.320,-2.077,-22.750,-215.390,43.820
-3.317,-0.199,-3.020,16.030,-205.800,96.250
-2.870,-0.406,-3.502,93.380,-177.870,102.830
-2.220,-0.941,-3.804,107.660,-118.580,112.840
-1.810,-1.319,-4.061,101.500,-60.690,102.760
-1.478,-1.528,-3.868,92.260,24.080,87.780
-1.239,-1.536,-3.125,72.310,61.600,57.190
-1.126,-1.342,-2.440,52.570,63.910,49.840
-0.992,-0.849,-2.186,51.520,49.490,52.710
-0.992,-0.593,-1.976,58.310,42.210,57.330
-0.972,-0.522,-1.971,82.740,46.830,57.400
-0.885,-0.425,-1.960,107.520,74.410,55.370
-0.819,-0.365,-1.766,113.400,115.990,52.640
-0.662,-0.337,-1.336,117.320,137.130,52.290
-0.528,-0.275,-1.057,118.160,175.350,56.210
-0.481,-0.233,-0.405,121.730,208.460,64.190
-0.399,-0.224,0.306,127.470,211.400,70.770
-0.343,-0.270,0.663,133.770,196.770,82.180
-0.318,-0.423,1.236,137.620,185.010,86.870
-0.241,-0.530,1.486,153.160,146.090,86.240
-0.135,-0.703,1.492,159.530,103.250,79.870
-0.097,-0.891,1.310,176.400,83.860,66.150
-0.039,-0.953,0.902,190.890,55.230,58.520
0.014,-1.013,0.795,192.360,41.860,44.310
0.000,-1.054,0.461,190.820,38.780,31.360
-0.039,-1.009,0.326,172.830,45.220,30.380
-0.057,-0.986,0.233,166.810,42.770,32.270
-0.061,-0.981,0.186,148.470,39.130,37.030
-0.086,-1.062,0.191,121.520,28.350,42.630
-0.081,-1.125,0.183,102.200,13.090,53.760
-0.039,-1.161,0.140,73.220,3.430,57.260
0.028,-1.266,0.127,49.070,-21.490,53.830
0.038,-1.369,0.021,39.200,-32.620,39.200
0.025,-1.374,-0.187,30.380,-42.770,32.060
0.010,-1.269,-0.278,31.920,-39.270,21.560
0.010,-1.153,-0.365,38.080,-34.930,17.010
0.027,-1.114,-0.383,38.640,-23.660,15.750
0.068,-1.050,-0.360,38.150,-11.200,14.910
0.085,-1.012,-0.266,38.010,-5.250,15.750
0.086,-1.006,-0.195,41.440,5.040,15.680
0.081,-0.980,-0.025,42.840,10.360,16.310
0.086,-0.963,0.105,49.700,11.620,18.480
0.101,-0.934,0.143,60.620,12.600,20.370
0.112,-0.928,0.151,68.390,14.210,24.780
0.145,-0.932,0.133,87.710,14.210,27.020
0.166,-0.985,0.128,100.800,18.200,28.420
0.192,-1.074,0.191,99.400,19.250,26.110
0.225,-1.124,0.221,95.760,20.860,23.800
0.242,-1.184,0.230,95.900,19.530,18.620
0.244,-1.220,0.217,101.920,19.880,15.400
0.252,-1.258,0.175,114.940,16.730,10.990
0.235,-1.346,0.180,121.940,12.040,3.570
0.239,-1.413,0.151,125.090,9.940,-3.430
0.234,-1.465,0.135,118.090,5.040,-8.540
0.220,-1.558,0.035,112.560,4.550,-19.600
0.218,-1.582,-0.044,104.790,4.060,-24.920
0.189,-1.637,-0.101,101.290,5.110,-37.100
0.158,-1.679,-0.186,100.380,7.560,-49.070
0.117,-1.689,-0.248,95.620,8.820,-54.670
0.070,-1.707,-0.271,87.360,11.550,-65.100
0.045,-1.688,-0.307,82.460,12.530,-73.290
0.005,-1.674,-0.325,74.900,12.110,-77.490
-0.039,-1.650,-0.332,69.510,11.690,-85.190
-0.059,-1.581,-0.343,59.010,11.760,-89.600
-0.076,-1.535,-0.328,41.860,13.720,-90.580
-0.079,-1.473,-0.185,21.420,14.000,-94.640
-0.076,-1.400,-0.058,-34.790,12.950,-101.640
-0.093,-1.331,-0.081,-66.990,14.000,-103.040
-0.116,-1.015,-0.522,-45.150,81.760,-68.460
-0.170,-0.909,-0.346,-43.190,91.210,-55.230
-0.153,-0.927,-0.295,-33.950,100.940,-50.260
-0.135,-0.866,-0.467,-32.760,124.670,-40.670
-0.145,-0.800,-0.633,-12.390,142.940,-33.670
-0.193,-0.745,-0.615,4.340,172.900,-21.350
-0.218,-0.795,-0.582,12.530,193.690,-19.250
-0.256,-0.858,-0.508,24.990,197.540,-23.730
-0.250,-0.943,-0.509,36.750,204.050,-37.240
-0.245,-1.011,-0.526,46.200,206.360,-54.880
-0.224,-1.034,-0.482,68.530,206.150,-63.980
-0.154,-1.048,-0.460,94.920,206.780,-80.640
-0.118,-1.105,-0.343,105.070,207.900,-96.460
-0.066,-1.137,-0.146,120.260,210.350,-103.040
-0.051,-1.212,-0.040,128.100,210.210,-114.310
-0.038,-1.294,0.254,133.630,206.640,-124.950
0.003,-1.347,0.422,118.930,192.010,-131.320
0.064,-1.457,0.798,103.880,161.840,-147.700
0.098,-1.518,1.094,73.430,139.720,-171.570
0.138,-1.578,1.162,56.910,85.750,-184.730
0.162,-1.495,1.125,57.820,28.980,-208.390
0.167,-1.385,0.934,61.110,6.020,-217.700
0.162,-1.105,0.739,66.150,-7.980,-212.310
0.165,-0.902,0.579,51.170,-20.160,-208.390
0.225,-0.854,0.433,35.210,-24.920,-208.110
0.242,-0.735,0.293,22.120,-28.630,-209.510

2.457,1.282,1.314,-153.300,-97.300,351.750
2.463,1.205,1.647,-152.810,-106.190,347.970
2.279,1.066,1.746,-136.360,-121.520,332.220
2.146,1.099,1.950,-126.000,-130.760,316.050
1.899,1.121,2.122,-106.750,-152.460,309.120
1.689,1.145,2.164,-92.260,-169.960,297.640
1.562,1.084,2.181,-84.000,-175.910,285.880
1.204,1.000,2.217,-68.110,-185.920,276.640
0.727,0.814,2.163,-39.620,-208.040,256.690
0.470,0.598,1.758,-14.630,-217.000,248.850
-0.002,0.479,1.377,41.440,-224.770,250.670
-0.473,0.257,1.056,67.900,-208.530,287.560
-0.712,-0.057,0.827,90.580,-206.430,325.360
-1.196,-0.292,0.715,75.880,-219.450,341.460
-1.755,-1.019,0.115,71.750,-218.540,321.300
-1.925,-1.548,0.032,40.670,-237.930,351.400
-1.843,-1.643,0.004,-49.420,-286.020,379.260
-1.826,-2.513,-0.174,-97.090,-334.880,395.640
-1.831,-3.072,-0.210,-195.930,-358.120,349.300
-2.150,-3.850,-0.192,-295.610,-401.660,315.000
-2.718,-3.773,-0.370,-316.330,-410.690,254.380
-2.762,-3.558,-0.569,-295.610,-407.470,215.390
-2.760,-3.268,-0.674,-188.090,-387.030,204.050
-2.725,-3.318,-1.094,-109.970,-336.000,173.250
-2.941,-3.513,-1.326,14.840,-317.870,142.170
-3.108,-3.906,-1.605,111.370,-274.330,56.770
-3.105,-4.133,-2.257,148.680,-238.210,-41.580
-2.765,-4.119,-3.180,214.480,-207.830,-78.400
-1.945,-3.902,-3.548,250.460,-100.730,-118.090
-1.636,-3.984,-3.662,242.830,-55.720,-166.950
-1.151,-3.974,-3.553,190.820,7.000,-195.090
-0.796,-3.492,-3.427,119.280,43.120,-243.810
-0.699,-2.537,-2.993,85.820,54.670,-265.090
-0.659,-2.004,-2.621,25.340,77.630,-262.360
-0.247,-1.056,-2.331,14.070,105.000,-233.520
-0.526,-0.599,-1.485,-42.840,96.600,-224.910
-0.820,-0.188,-1.284,-85.330,89.180,-209.440
-0.878,0.711,-1.085,-81.060,88.760,-159.180
-0.898,1.319,-0.969,-24.990,98.980,-98.140
-0.999,1.543,-0.849,58.170,134.890,-69.370
-1.083,1.849,-0.385,97.020,167.300,-1.680
-1.100,1.958,0.033,164.640,178.220,66.640
-1.135,1.907,0.189,273.980,169.400,97.860
-1.120,1.538,0.402,322.280,153.230,152.530
-0.923,1.256,0.270,423.360,161.210,199.850
-0.440,0.526,0.216,502.950,199.080,230.230
-0.344,-0.404,0.230,546.140,239.890,233.310
-0.170,-0.884,0.758,545.300,263.550,218.190
0.026,-1.652,1.204,421.750,274.400,168.420
0.099,-2.155,2.007,342.580,258.720,103.810
0.244,-2.244,2.279,192.920,206.290,72.310
0.252,-2.193,2.214,108.080,149.660,22.120
0.224,-1.965,1.864,107.520,126.700,-11.550
0.177,-1.858,1.600,126.140,80.430,-25.480
0.128,-1.712,1.496,132.860,44.240,-44.660
0.082,-1.559,1.053,141.120,41.160,-51.310
0.010,-1.456,0.771,128.030,47.950,-51.800
-0.020,-1.309,0.787,105.350,49.630,-52.570
-0.044,-1.133,0.492,49.070,55.370,-50.400
-0.134,-1.171,0.292,33.670,75.180,-52.570
-0.223,-1.051,0.195,47.320,46.270,-65.800
-0.173,-0.995,0.527,61.740,10.710,-80.080
-0.144,-0.895,0.420,54.670,-39.900,-85.540
-0.147,-0.759,0.088,55.230,-53.130,-86.800
-0.145,-0.717,-0.190,43.330,-46.900,-85.190
-0.202,-0.743,-0.275,20.650,-23.660,-81.830
-0.195,-0.755,-0.294,4.060,-12.530,-73.500
-0.128,-0.782,-0.299,-26.530,3.360,-69.160
-0.073,-0.867,-0.293,-34.230,12.390,-61.670
-0.044,-0.919,-0.296,-36.400,18.270,-53.480
-0.002,-0.957,-0.142,-27.860,27.440,-50.400
-0.006,-1.046,-0.193,-21.560,32.900,-48.930
0.009,-1.079,-0.096,-8.890,33.530,-46.760
0.028,-1.104,-0.057,4.410,31.850,-46.690
0.017,-1.163,0.002,9.450,27.650,-47.180
0.006,-1.186,0.027,18.200,25.480,-48.090
-0.014,-1.236,0.026,28.140,22.750,-50.400
-0.020,-1.284,0.042,32.060,21.910,-54.460
-0.013,-1.305,0.061,31.710,22.820,-57.120
0.009,-1.331,0.063,29.750,25.690,-62.510
0.024,-1.337,0.054,28.210,28.560,-67.270
0.038,-1.336,0.203,27.510,31.080,-68.390
0.081,-1.312,0.221,20.160,36.400,-70.350
0.056,-1.373,0.221,3.010,40.880,-78.190
0.087,-1.355,0.288,-14.630,45.220,-79.590
0.165,-1.286,0.434,-23.870,40.740,-82.880
0.170,-1.129,0.547,-27.720,36.260,-88.410
0.130,-1.158,0.583,-27.090,27.370,-91.560
0.114,-1.026,0.610,-23.730,22.050,-93.660
0.142,-0.939,0.478,-11.200,43.610,-82.110
0.071,-0.893,0.600,-33.880,36.610,-81.760
0.053,-0.935,0.632,-39.340,25.130,-84.350
0.042,-0.985,0.450,-35.420,21.490,-87.150
0.045,-1.029,0.378,-13.930,21.280,-91.350
0.035,-1.095,0.281,0.280,20.790,-100.240
0.020,-1.122,0.234,29.960,21.420,-106.120
-0.020,-1.143,0.216,44.590,23.590,-117.810
-0.038,-1.124,0.205,71.050,24.570,-130.270
0.012,-1.065,0.242,78.960,23.380,-134.260
0.145,-0.937,0.247,78.120,17.500,-137.690
0.205,-0.846,0.256,74.060,12.250,-135.520
0.277,-0.824,0.275,59.430,-4.060,-133.630
0.298,-0.826,0.226,49.630,-14.910,-128.800
0.311,-0.851,0.152,26.390,-18.970,-125.930
0.354,-0.880,0.114,6.790,-21.070,-123.410
0.493,-0.871,0.070,-0.560,-17.360,-118.160
0.385,-0.868,0.093,-9.450,-16.870,-115.990
0.372,-0.871,0.100,-11.410,-18.060,-113.680
0.363,-0.862,0.100,-10.710,-19.040,-112.560
0.333,-0.846,0.081,-3.360,-19.880,-111.860
0.302,-0.822,0.085,2.730,-19.390,-111.580
0.288,-0.812,0.115,14.490,-19.670,-112.910
0.266,-0.811,0.110,20.090,-20.370,-114.380
0.252,-0.791,0.090,21.140,-19.040,-117.320
0.239,-0.747,0.042,19.110,-17.150,-120.120
0.219,-0.717,0.020,23.800,-12.390,-120.680
0.213,-0.651,0.037,29.260,-9.450,-119.490
0.215,-0.624,0.100,33.390,-8.680,-115.570
0.256,-0.589,0.117,23.100,-7.560,-112.910

2.388,1.591,1.087,-76.300,19.110,65.380
2.336,1.973,1.155,-103.600,9.450,84.560
2.287,2.277,1.346,-103.810,3.220,110.460
2.109,2.406,1.484,-101.640,-14.000,125.930
1.953,2.627,1.446,-87.850,-22.050,168.980
1.794,2.657,1.564,-63.560,-35.700,209.160
1.388,2.655,1.425,-36.330,-66.710,230.510
1.143,2.601,1.288,-19.460,-80.430,275.870
1.041,2.397,1.057,22.330,-85.330,318.640
0.808,2.278,0.952,62.300,-87.150,337.470
0.493,1.949,0.901,77.070,-91.770,369.320
0.367,1.815,1.036,82.810,-100.240,432.180
0.070,1.669,1.021,84.420,-115.570,471.870
-0.269,1.222,1.004,80.570,-138.670,535.360
-0.550,0.905,0.898,73.570,-152.040,577.920
-0.935,0.115,0.825,61.950,-173.040,589.610
-1.112,-0.934,0.776,42.210,-173.530,584.010
-1.324,-1.518,0.930,-29.750,-166.740,566.370
-1.221,-2.673,1.047,-120.190,-146.720,504.350
-1.100,-3.619,1.306,-169.540,-139.370,428.610
-0.833,-3.926,1.523,-251.580,-139.650,395.640
-0.880,-4.275,1.641,-302.960,-197.610,322.420
-1.036,-4.369,1.444,-270.480,-228.410,223.440
-1.469,-4.345,0.851,-150.010,-248.150,172.270
-2.049,-4.125,0.788,-88.340,-273.210,78.330
-2.344,-3.744,0.463,24.360,-293.650,-2.100
-2.738,-3.571,-0.424,112.070,-318.360,-36.260
-2.900,-3.230,-0.881,149.450,-314.860,-87.290
-2.851,-3.005,-1.923,212.590,-297.920,-124.390
-2.803,-2.879,-2.334,270.900,-258.580,-137.690
-2.541,-2.953,-3.024,292.110,-188.650,-194.530
-2.147,-2.167,-2.860,256.690,-167.720,-131.180
-1.360,-1.996,-2.887,179.200,-115.430,-105.980
-1.383,-2.359,-2.858,150.010,-61.810,-100.100
-1.316,-2.467,-2.289,50.540,-42.070,-108.290
-1.020,-2.237,-2.059,-40.740,-21.490,-110.250
-0.787,-1.833,-1.721,-64.680,-21.070,-108.500
-0.778,-1.680,-1.470,-73.710,-25.480,-109.620
-0.611,-1.359,-1.479,-38.080,-11.970,-101.220
-0.567,-1.049,-1.279,-32.340,-12.460,-99.400
-0.709,-0.863,-1.173,-16.870,-16.030,-101.710
-0.746,-0.357,-1.264,25.130,-6.440,-93.170
-0.833,0.164,-1.481,86.660,11.410,-71.820
-0.836,0.336,-0.867,173.390,-24.780,-57.820
-0.657,0.409,-1.025,206.500,-26.040,-26.530
-0.652,0.178,-1.239,263.340,-7.000,-5.600
-0.513,0.037,-1.039,264.110,38.430,0.910
-0.393,-0.278,-0.901,254.310,73.920,4.340
-0.369,-0.408,-0.621,234.220,87.990,3.430
-0.285,-0.561,-0.462,198.030,108.430,3.920
-0.185,-0.701,-0.239,180.670,123.900,2.730
-0.136,-0.762,-0.076,157.430,132.860,3.010
-0.062,-0.874,0.056,136.500,141.820,-0.350
-0.030,-0.937,0.321,120.470,148.400,1.680
0.030,-0.962,0.565,92.050,150.290,4.410
0.090,-1.025,0.701,86.590,139.230,4.130
0.126,-1.109,1.022,82.810,128.730,0.630
0.180,-1.139,1.281,77.070,101.430,-1.960
0.223,-1.154,1.383,72.030,61.810,-7.140
0.236,-1.151,1.397,64.540,42.700,-10.570
0.279,-1.128,1.359,50.960,9.310,-11.340
0.287,-1.110,1.188,43.540,-12.810,-13.510
0.285,-1.099,0.987,20.230,-19.670,-17.150
0.285,-1.098,0.881,3.220,-29.120,-19.040
0.282,-1.072,0.644,0.420,-30.170,-22.610
0.275,-1.042,0.534,-1.540,-32.270,-22.820
0.264,-0.995,0.464,-4.900,-31.850,-23.520
0.247,-0.982,0.350,-5.530,-31.290,-23.940
0.229,-0.973,0.222,-3.920,-29.260,-23.450
0.215,-0.965,0.179,15.470,-24.710,-21.280
0.211,-1.006,0.094,4.480,-23.310,-21.560
0.177,-1.047,0.004,13.510,-13.860,-23.520
0.214,-1.041,-0.009,15.400,-6.160,-20.300
0.232,-1.090,-0.002,16.520,-5.040,-18.410
0.237,-1.124,-0.001,15.260,-1.820,-17.920
0.231,-1.187,-0.009,14.140,0.350,-19.600
0.232,-1.193,-0.042,10.710,1.610,-20.510
0.215,-1.209,-0.067,9.310,6.440,-21.840
0.206,-1.206,-0.061,8.540,9.940,-22.890
0.203,-1.195,-0.068,4.060,12.250,-23.240
0.185,-1.179,-0.068,3.430,16.730,-24.010
0.178,-1.148,-0.028,1.190,18.550,-22.120
0.176,-1.144,0.002,-4.410,21.000,-21.700
0.164,-1.148,-0.001,-6.160,25.410,-21.350
0.158,-1.130,-0.002,-4.900,28.630,-21.980
0.163,-1.118,0.027,1.120,33.460,-22.330
0.166,-1.095,0.113,5.880,35.070,-24.010
0.164,-1.077,0.227,14.140,34.020,-24.710
0.157,-1.025,0.276,12.320,30.170,-24.920
0.158,-1.007,0.332,10.220,25.410,-24.710
0.178,-1.011,0.352,10.290,21.840,-25.270
0.201,-1.034,0.352,11.830,13.580,-27.300
0.205,-1.080,0.298,11.760,10.010,-31.430
0.202,-1.112,0.222,8.190,6.090,-34.090
0.190,-1.166,0.194,3.990,3.850,-41.300
0.185,-1.209,0.106,-3.990,3.920,-49.560
0.165,-1.216,0.054,-4.620,4.970,-53.690
0.131,-1.210,-0.042,-3.220,9.100,-60.340
0.108,-1.213,-0.109,-1.890,12.250,-65.800
0.074,-1.234,-0.128,-0.210,20.650,-68.460
0.072,-1.256,-0.132,-0.630,28.980,-73.430
0.067,-1.264,-0.128,-2.170,33.810,-75.530
0.014,-1.236,-0.127,-6.160,46.550,-77.630
0.047,-1.213,-0.002,-16.940,46.480,-82.740
0.178,-1.225,0.025,-26.460,41.580,-84.840
0.168,-1.225,0.010,-4.200,37.940,-88.900
0.146,-1.151,0.017,-11.410,36.960,-90.510
0.143,-1.118,0.040,-1.890,35.770,-90.650
0.158,-1.067,0.052,-0.070,35.490,-88.410
0.164,-1.052,0.077,-1.330,35.490,-86.100
0.175,-1.060,0.093,-0.560,34.930,-85.470
0.189,-1.087,0.190,-1.610,28.350,-86.310
0.196,-1.094,0.250,-4.620,23.100,-87.570
0.212,-1.117,0.240,-5.040,13.650,-88.620
0.220,-1.168,0.190,-6.720,6.650,-93.590
0.223,-1.195,0.090,-13.510,5.040,-97.580
0.212,-1.223,0.020,-19.250,7.630,-106.540
0.215,-1.219,-0.100,-22.120,10.080,-114.730
0.230,-1.217,-0.188,-26.250,19.950,-119.000

1.851,2.442,0.840,-103.390,25.480,313.390
1.980,2.613,0.787,-130.200,43.470,337.120
1.686,2.545,1.173,-167.580,17.220,366.380
1.516,2.545,1.310,-219.730,-3.150,378.490
1.285,2.588,1.140,-217.350,-26.600,412.300
1.190,2.480,0.818,-190.050,-42.490,450.240
1.027,2.307,0.665,-126.420,-48.020,463.260
0.864,1.859,0.604,-81.410,-48.090,477.120
0.771,1.407,0.495,-63.630,-42.000,487.200
0.579,1.197,0.582,-19.810,-19.740,493.780
0.371,0.688,0.800,1.120,-10.430,504.770
0.262,0.052,1.345,22.120,-15.540,511.280
0.003,-0.293,1.629,33.880,-32.060,510.930
-0.267,-1.020,1.758,41.370,-56.630,495.880
-0.347,-1.799,2.044,54.460,-72.870,469.910
-0.480,-2.176,2.204,64.120,-108.780,455.910
-0.488,-2.986,2.688,32.130,-163.170,418.040
-0.534,-3.700,3.147,-20.230,-198.100,367.850
-0.731,-3.974,3.339,-94.290,-285.110,336.700
-1.319,-4.024,3.388,-107.450,-353.430,273.490
-1.419,-3.708,3.503,-220.640,-392.630,387.660
-1.844,-2.787,3.746,-199.850,-655.550,391.370
-2.579,-4.413,0.878,-121.380,-606.830,213.640
-3.414,-4.502,-0.598,-42.700,-526.680,92.960
-4.065,-3.356,-0.618,-41.650,-451.710,76.650
-4.089,-2.335,-1.528,33.110,-376.880,44.940
-3.893,-2.020,-1.605,250.460,-375.130,41.650
-3.700,-1.608,-1.606,314.230,-405.790,52.010
-3.688,-2.670,-2.637,334.320,-389.200,-53.620
-3.421,-3.423,-3.487,337.890,-339.990,-122.710
-2.907,-3.653,-3.601,210.280,-179.620,-204.610
-2.436,-2.743,-3.350,154.000,-124.530,-193.060
-1.691,-2.327,-2.978,74.270,-25.900,-170.590
-1.582,-2.078,-2.596,8.750,49.980,-156.170
-1.556,-1.843,-1.382,-33.180,41.510,-164.080
-1.276,-1.534,-0.945,-91.630,-5.250,-157.080
-1.084,-0.861,-0.945,-90.440,-48.370,-122.640
-1.132,-0.468,-1.403,-56.280,-34.370,-91.350
-1.247,-0.356,-1.330,-21.770,-36.190,-80.010
-1.175,-0.085,-1.345,-10.220,-49.070,-44.030
-1.093,0.091,-1.631,25.200,-52.850,14.630
-1.040,0.187,-1.870,69.930,-19.250,41.230
-1.051,-0.151,-2.094,79.660,44.870,71.680
-1.011,-0.362,-2.084,123.340,83.440,78.610
-0.731,-0.886,-1.745,184.590,87.360,65.590
-0.542,-1.350,-1.416,208.740,112.350,43.750
-0.502,-1.586,-1.224,244.860,143.150,23.030
-0.416,-1.832,-0.996,227.850,195.650,-21.350
-0.334,-1.843,-0.481,209.440,219.100,-59.780
-0.199,-1.795,0.066,165.830,255.570,-79.800
-0.162,-1.479,0.368,151.550,280.700,-102.760
-0.089,-0.967,1.282,134.680,263.340,-104.160
-0.050,-0.773,1.856,144.340,219.940,-101.220
-0.040,-0.407,2.055,151.550,172.130,-85.470
-0.023,-0.126,2.309,159.810,148.050,-56.910
0.061,-0.034,2.385,176.960,92.050,-40.320
0.114,-0.046,2.335,190.960,40.180,-13.300
0.139,-0.238,2.241,198.310,16.800,-0.560
0.188,-0.258,2.236,143.010,-25.410,0.140
0.222,-0.460,2.016,106.750,-60.130,-3.220
0.236,-0.536,1.387,74.690,-68.320,-4.620
0.256,-0.651,1.122,77.980,-72.800,-8.680
0.258,-0.747,0.820,80.710,-74.270,-9.730
0.215,-0.806,0.584,81.760,-74.130,-11.130
0.163,-0.890,0.484,79.940,-70.280,-12.950
0.142,-0.939,0.315,73.080,-66.710,-12.460
0.113,-0.968,0.189,66.290,-57.820,-12.040
0.054,-1.019,0.142,62.510,-48.090,-13.790
0.036,-1.081,0.052,56.700,-41.370,-20.720
0.102,-1.110,0.021,56.770,-26.110,-23.870
0.134,-1.150,-0.004,56.420,-14.000,-28.420
0.146,-1.166,-0.012,49.420,-8.260,-29.470
0.186,-1.156,-0.016,37.800,-0.560,-28.000
0.188,-1.175,-0.085,34.790,12.880,-27.720
0.186,-1.196,-0.067,37.240,17.990,-29.260
0.190,-1.214,-0.041,39.270,28.770,-30.730
0.203,-1.169,0.058,40.320,31.080,-32.060
0.183,-1.164,0.213,34.580,32.690,-33.740
0.180,-1.127,0.315,12.110,28.350,-37.590
0.178,-1.127,0.503,-2.100,25.900,-42.980
0.155,-1.139,0.656,-31.360,20.090,-47.600
0.093,-1.183,0.681,-43.820,12.250,-54.880
0.064,-1.200,0.607,-50.470,7.350,-57.260
0.015,-1.247,0.515,-40.040,6.090,-60.970
0.003,-1.339,0.408,-34.930,-1.050,-69.090
0.011,-1.364,0.290,-30.240,-5.600,-77.070
0.007,-1.414,0.221,-34.440,-12.810,-80.220
0.004,-1.373,0.078,-39.200,-13.160,-85.260
0.027,-1.331,-0.020,-54.040,-11.130,-87.640
0.038,-1.246,-0.039,-67.620,-3.080,-93.660
0.041,-1.107,0.020,-76.650,-1.050,-93.170
0.052,-1.043,-0.021,-82.880,-3.850,-90.160
0.038,-0.963,-0.076,-77.910,-8.400,-79.450
0.023,-0.937,-0.164,-66.010,-9.100,-66.780
0.013,-0.936,-0.191,-61.320,-10.080,-61.530
-0.017,-1.005,-0.280,-59.570,-3.640,-57.820
-0.023,-1.027,-0.325,-62.300,-0.140,-56.700
-0.037,-1.081,-0.372,-55.650,11.200,-58.100
-0.064,-1.149,-0.403,-51.240,24.220,-59.500
-0.075,-1.194,-0.362,-41.860,31.780,-61.040
-0.102,-1.309,-0.310,-34.720,44.590,-67.340
-0.112,-1.427,-0.214,-33.320,67.550,-76.720
-0.121,-1.474,-0.134,-33.180,59.500,-81.410
-0.099,-1.568,-0.089,-40.040,64.960,-92.330
-0.087,-1.678,-0.004,-48.440,67.690,-106.470
-0.061,-1.714,0.122,-65.940,69.650,-115.150
-0.043,-1.693,0.186,-72.520,65.100,-131.320
-0.035,-1.571,0.303,-74.270,59.710,-141.400
0.001,-1.507,0.344,-64.470,43.890,-144.830
0.079,-1.409,0.331,-61.390,27.580,-152.600
0.122,-1.347,0.212,-63.140,20.860,-161.700
0.175,-1.319,0.099,-64.050,12.320,-165.900
0.147,-1.256,-0.182,-58.380,12.880,-174.230
0.125,-1.203,-0.366,-42.770,14.280,-178.920
0.092,-1.057,-0.426,-35.070,22.820,-179.550
0.060,-0.873,-0.479,-31.780,35.490,-178.010
0.036,-0.798,-0.442,-24.850,42.980,-175.210
-0.010,-0.688,-0.389,-16.590,54.320,-172.900
-0.020,-0.604,-0.296,-14.840,62.580,-166.460

-0.906,-2.468,2.322,-92.050,-164.150,303.800
-1.059,-2.681,2.381,-69.090,-188.510,263.970
-1.460,-2.969,2.405,-56.980,-243.460,239.680
-1.678,-2.980,2.244,-54.740,-302.260,207.130
-2.113,-2.887,1.671,-46.130,-327.180,196.350
-2.534,-2.661,1.224,-12.250,-358.890,186.200
-2.732,-2.385,0.156,23.380,-364.070,189.630
-3.066,-2.306,-0.952,110.320,-342.860,187.390
-3.595,-2.455,-1.345,222.320,-322.420,128.100
-3.820,-2.970,-0.880,249.690,-400.610,6.790
-3.571,-2.636,-2.028,245.700,-494.620,1.890
-3.057,-2.140,-2.782,277.340,-444.570,46.690
-2.733,-2.535,-3.434,285.670,-393.960,75.810
-2.391,-3.158,-3.677,246.820,-267.890,52.710
-2.059,-4.030,-3.574,190.260,-127.820,-26.040
-1.791,-4.083,-3.127,82.530,-77.910,-106.750
-1.279,-3.787,-2.868,33.180,-20.160,-130.200
-1.043,-3.036,-2.288,35.700,-12.320,-151.200
-0.984,-2.310,-1.767,63.910,-21.280,-153.300
-0.959,-2.034,-1.646,87.850,-44.030,-151.690
-1.023,-1.470,-1.709,99.120,-49.630,-149.660
-1.057,-1.224,-1.826,99.470,-44.170,-140.210
-1.034,-0.676,-1.867,74.200,-24.570,-129.920
-0.991,-0.203,-2.042,63.350,14.770,-97.790
-0.890,-0.018,-2.052,58.870,38.920,-77.210
-0.815,0.136,-1.967,75.740,85.470,-39.900
-0.776,0.069,-1.651,85.960,126.070,-10.290
-0.649,-0.080,-1.189,97.650,143.010,-4.550
-0.479,-0.392,-0.941,100.310,170.310,-4.830
-0.402,-0.607,-0.418,103.740,182.560,-13.300
-0.300,-0.667,0.160,111.300,205.170,-19.180
-0.203,-0.662,0.442,121.100,216.650,-25.410
-0.182,-0.700,1.133,123.410,211.820,-33.530
-0.128,-0.650,1.509,87.710,185.500,-32.060
-0.058,-0.524,1.638,101.360,150.920,-26.670
-0.010,-0.532,1.829,128.380,130.270,-22.330
0.048,-0.488,1.830,151.620,91.630,-19.670
0.110,-0.504,1.767,164.360,54.320,-15.470
0.137,-0.541,1.568,186.550,35.700,-14.910
0.174,-0.643,1.418,180.880,9.800,-16.520
0.181,-0.729,1.165,165.830,-0.910,-21.350
0.181,-0.756,0.993,125.160,-3.990,-22.960
0.202,-0.808,0.885,98.560,-4.550,-22.050
0.215,-0.845,0.745,90.510,-5.390,-17.430
0.210,-0.871,0.673,65.660,-7.420,-15.470
0.208,-0.910,0.652,36.260,-9.520,-11.200
0.201,-0.921,0.624,24.010,-9.310,-7.420
0.173,-0.916,0.613,-3.010,-9.030,-5.250
0.186,-0.875,0.604,-14.140,-10.010,3.570
0.200,-0.879,0.648,-30.870,-16.240,12.040
0.205,-0.937,0.604,-40.880,-22.120,15.470
0.190,-1.010,0.476,-45.360,-18.690,20.370
0.184,-1.052,0.416,-52.710,-17.290,21.140
0.191,-1.136,0.403,-57.330,-16.030,20.020
0.197,-1.177,0.374,-57.120,-15.680,17.290
0.193,-1.173,0.323,-47.390,-14.980,15.820
0.162,-1.144,0.308,-31.150,-12.810,14.140
0.152,-1.142,0.297,-23.310,-12.250,13.300
0.138,-1.159,0.291,-10.220,-9.100,12.040
0.126,-1.201,0.309,-6.160,-6.860,7.840
0.122,-1.234,0.336,-4.130,-6.370,1.610
0.093,-1.244,0.343,-7.980,-6.020,-2.520
0.069,-1.254,0.404,-15.750,-10.570,-12.250
0.065,-1.262,0.359,-28.770,-11.760,-20.720
0.051,-1.294,0.302,-28.840,-5.530,-24.220
0.032,-1.322,0.296,-29.050,-4.200,-30.800
-0.017,-1.350,0.282,-33.740,-3.570,-36.190
-0.042,-1.398,0.255,-38.780,-0.490,-51.100
-0.021,-1.337,0.232,-40.110,-0.210,-60.900
0.038,-1.294,0.222,-39.620,-3.710,-62.930
0.038,-1.217,0.204,-39.270,-9.030,-62.860
0.027,-1.172,0.150,-34.860,-11.060,-61.950
0.035,-1.159,0.003,-31.220,-14.350,-62.230
0.056,-1.162,0.084,-31.640,-15.470,-65.310
0.078,-1.017,0.065,-41.860,-16.310,-67.200
0.124,-1.069,0.033,-46.480,-17.780,-67.270
0.122,-0.991,-0.051,-44.380,-17.640,-68.320
0.104,-0.956,-0.155,-38.920,-15.610,-68.460
0.077,-0.882,-0.183,-35.560,-10.780,-66.780
0.056,-0.849,-0.263,-35.280,-1.400,-62.440
0.033,-0.850,-0.257,-37.660,3.850,-60.550
0.008,-0.909,-0.242,-42.210,14.000,-59.920
0.001,-1.001,-0.186,-44.170,18.830,-62.650
0.012,-1.047,-0.129,-41.790,26.810,-66.010
0.025,-1.090,-0.112,-36.680,32.270,-72.870
0.028,-1.095,-0.085,-17.570,34.370,-78.400
0.005,-1.111,-0.055,-5.670,39.480,-80.570
0.003,-1.149,0.034,-6.230,42.980,-86.730
0.020,-1.164,0.074,-14.700,44.240,-92.050
0.082,-1.145,0.085,-23.100,46.690,-93.800
0.135,-1.092,0.132,-27.370,46.270,-93.170
0.169,-1.067,0.171,-34.300,44.660,-90.230
0.227,-1.053,0.180,-37.730,40.600,-89.530
0.262,-1.053,0.212,-42.560,33.880,-90.300
0.309,-1.061,0.147,-46.410,30.240,-92.120
0.333,-1.097,0.085,-41.160,26.530,-98.280
0.348,-1.135,-0.042,-36.540,26.670,-107.660
0.364,-1.163,-0.106,-40.880,29.190,-114.310
0.362,-1.239,-0.168,-41.580,35.700,-130.690
0.356,-1.307,-0.270,-36.610,40.880,-149.380
0.349,-1.313,-0.240,-30.310,51.590,-158.270
0.330,-1.324,-0.203,-28.280,59.990,-177.170
0.287,-1.286,-0.082,-35.490,64.050,-197.400
0.121,-1.139,0.163,-49.000,55.580,-189.140
0.324,-0.785,0.162,-44.450,42.280,-173.180
0.339,-0.822,0.084,-29.330,41.720,-173.810
0.237,-0.795,0.100,-9.030,40.670,-175.770
0.148,-0.573,0.179,3.850,35.490,-177.240
0.085,-0.409,0.273,15.820,33.600,-156.240
-0.531,0.144,0.327,74.270,19.320,-152.740
0.387,-0.473,0.621,103.250,0.280,-180.110
0.453,-0.141,0.209,14.770,-0.210,-163.590
0.439,-0.497,0.131,55.020,4.410,-163.170
0.506,-0.647,0.325,39.970,7.700,-161.630
0.660,-0.539,0.251,4.690,5.950,-146.720
1.539,0.091,0.279,-2.450,6.300,-80.850
1.277,-0.353,0.431,-12.740,-3.290,-36.190
0.786,-0.615,0.423,-14.280,-26.390,-32.900
0.494,-0.928,0.370,-33.180,-36.820,-42.840

-2.704,-1.354,1.326,-141.050,159.740,530.460
-2.875,-2.488,1.464,-22.260,65.450,436.100
-2.716,-2.817,2.367,-38.430,-4.060,351.610
-2.317,-2.944,2.343,-94.640,-170.800,309.260
-2.081,-3.013,1.823,-119.070,-306.600,233.520
-2.021,-2.560,0.009,-80.360,-330.400,203.140
-2.051,-2.317,-1.186,10.080,-323.610,203.630
-2.073,-2.239,-1.472,46.970,-284.970,210.000
-2.021,-2.691,-1.890,100.590,-259.420,198.310
-1.808,-3.070,-2.012,133.000,-200.690,182.420
-1.584,-3.698,-2.123,158.900,-148.820,126.560
-1.535,-3.965,-2.043,179.900,-114.870,44.940
-1.254,-4.132,-1.831,128.100,-72.940,13.090
-1.038,-3.754,-1.650,102.130,-38.640,-37.590
-0.976,-3.536,-1.459,81.270,-27.160,-70.700
-0.845,-3.005,-1.299,48.440,-13.160,-80.080
-0.768,-2.482,-0.985,33.600,-20.160,-89.390
0.134,-2.142,-1.573,-227.360,-16.170,-84.980
-0.169,-2.168,-2.306,34.860,24.080,-73.990
-0.372,-2.055,-1.104,77.000,25.900,-82.600
-0.544,-2.096,-0.500,52.430,12.110,-95.830
-0.678,-1.855,-0.343,44.240,-15.540,-115.220
-0.644,-1.459,-0.331,42.840,-30.030,-123.270
-0.565,-1.235,-0.624,66.360,-48.440,-121.660
-0.521,-0.848,-0.763,82.880,-48.580,-112.420
-0.488,-0.615,-0.999,101.780,-42.140,-99.190
-0.530,-0.563,-1.217,124.460,-15.820,-94.290
-0.582,-0.483,-1.137,127.260,23.170,-84.840
-0.571,-0.424,-1.095,119.630,42.980,-76.580
-0.558,-0.351,-0.981,113.890,83.860,-68.040
-0.519,-0.329,-0.723,110.460,120.610,-55.090
-0.536,-0.341,-0.339,93.310,138.740,-45.080
-0.509,-0.408,-0.133,93.660,162.540,-39.270
-0.526,-0.499,0.280,98.070,178.010,-32.410
-0.460,-0.557,0.849,130.830,174.230,-30.100
-0.323,-0.631,1.131,126.140,147.770,-24.080
-0.296,-0.748,1.406,120.120,115.010,-19.740
-0.255,-0.833,1.435,99.470,100.380,-20.370
-0.216,-0.945,1.416,75.320,76.440,-24.220
-0.190,-0.987,1.353,62.160,67.340,-28.420
-0.119,-0.995,1.275,40.390,48.650,-31.290
-0.069,-1.013,1.206,32.130,34.090,-37.380
-0.057,-1.010,1.062,28.350,28.840,-43.750
-0.029,-0.988,1.033,26.180,18.900,-45.920
-0.000,-0.951,1.009,22.960,6.790,-49.420
0.031,-0.925,0.927,10.220,1.820,-50.190
0.068,-0.915,0.869,10.640,-8.960,-52.150
0.092,-0.877,0.739,6.510,-11.900,-55.580
0.095,-0.845,0.599,2.940,-11.760,-56.700
0.094,-0.745,0.539,2.870,-10.500,-52.430
0.091,-0.707,0.471,6.510,-12.600,-43.470
0.080,-0.716,0.376,8.610,-14.140,-38.920
0.346,-0.775,0.346,14.350,-15.680,-29.890
0.367,-1.156,0.144,-1.680,-10.920,-35.070
0.044,-1.226,0.236,5.530,2.870,-38.010
-0.058,-1.184,0.261,-13.720,22.190,-50.190
-0.030,-1.097,0.436,-58.940,27.160,-47.460
-0.030,-0.994,0.515,-61.320,24.360,-43.470
0.011,-0.980,0.640,-49.910,7.630,-34.510
0.013,-0.993,0.665,-33.180,-1.610,-28.210
0.012,-1.054,0.624,-28.490,-15.120,-27.230
-0.008,-1.129,0.500,-30.310,-20.720,-29.120
0.048,-1.139,0.389,-33.880,-21.280,-30.310
0.108,-1.100,0.358,-31.710,-21.840,-28.770
0.116,-1.082,0.328,-26.110,-21.840,-24.850
0.136,-1.085,0.359,-30.800,-22.610,-22.680
0.102,-1.105,0.375,-33.460,-24.220,-18.970
0.092,-1.113,0.404,-37.310,-25.060,-17.220
0.104,-1.094,0.429,-40.810,-30.590,-14.630
0.101,-1.068,0.394,-44.660,-35.490,-9.520
0.115,-1.057,0.202,-26.950,-34.090,-2.240
0.056,-1.055,0.218,-37.450,-28.070,0.420
0.026,-1.181,0.201,-51.520,-20.370,-8.260
0.036,-1.230,0.183,-43.190,-18.550,-33.740
-0.012,-1.262,0.216,-62.930,-16.170,-30.100
-0.016,-1.278,0.180,-67.200,-19.180,-44.730
-0.002,-1.265,0.119,-55.510,-21.000,-51.170
0.016,-1.189,0.091,-51.240,-22.750,-60.900
0.066,-1.104,0.051,-42.000,-22.610,-62.510
0.059,-1.084,-0.059,-46.970,-21.770,-65.100
0.109,-1.064,-0.056,-51.590,-20.300,-67.550
0.072,-1.047,-0.107,-47.110,-17.640,-74.760
0.011,-1.034,-0.167,-35.490,-8.400,-80.220
0.010,-0.978,-0.183,-25.900,0.770,-87.920
-0.010,-0.945,-0.151,-33.320,3.430,-90.650
0.005,-0.889,-0.182,-34.090,11.620,-90.020
0.092,-0.854,-0.221,-33.320,24.710,-86.170
0.122,-0.846,-0.174,-28.070,30.520,-79.730
0.136,-0.843,-0.134,-35.140,41.160,-76.860
0.151,-0.864,-0.073,-39.060,51.310,-73.080
0.201,-0.875,-0.001,-43.610,55.930,-72.520
0.231,-0.904,0.068,-42.910,58.870,-72.520
0.227,-0.928,0.203,-42.280,57.820,-74.200
0.157,-0.932,0.356,-24.710,52.010,-74.970
0.324,-0.747,0.502,-26.460,30.520,-61.390
0.346,-0.725,0.533,-24.780,21.000,-48.580
0.241,-0.784,0.519,-19.040,6.020,-45.220
0.179,-0.914,0.476,-18.970,-3.290,-44.100
0.169,-1.093,0.441,-22.540,-6.230,-48.300
0.183,-1.059,0.429,-34.930,-10.710,-52.150
0.227,-1.139,0.400,-44.030,-15.260,-63.420
0.247,-1.175,0.339,-53.130,-18.690,-79.660
0.242,-1.206,0.314,-56.210,-25.410,-88.060
0.248,-1.151,0.262,-59.850,-30.100,-103.810
0.265,-1.108,0.183,-68.530,-30.870,-110.950
0.285,-1.000,0.149,-74.620,-30.520,-121.730
0.311,-0.870,0.103,-78.680,-29.540,-125.370
0.368,-0.801,0.032,-87.220,-26.810,-124.390
0.385,-0.678,0.023,-85.890,-26.040,-118.790
0.372,-0.600,0.019,-87.290,-25.480,-112.700
0.274,-0.578,-0.021,-86.100,-22.050,-109.900
0.395,-0.494,-0.051,-83.440,-17.290,-100.800
0.453,-0.457,-0.071,-66.640,-15.680,-88.550
0.476,-0.456,-0.047,-53.830,-16.100,-81.900
0.444,-0.459,-0.044,-47.810,-16.520,-68.600
0.424,-0.601,-0.036,-35.840,-17.010,-57.610
0.453,-0.584,0.000,-44.450,-17.500,-54.740
0.969,-0.744,0.081,-38.710,-37.940,-65.660
1.281,-0.674,0.133,-20.580,-37.450,-43.120

-1.209,-2.039,2.123,-229.110,262.990,367.290
-1.494,-2.253,2.135,-241.360,250.530,334.740
-2.336,-2.770,2.294,-134.470,160.300,228.200
-2.424,-2.806,3.449,-117.600,86.590,118.440
-2.293,-2.661,3.697,-151.690,-114.870,72.170
-2.144,-2.281,3.577,-128.870,-334.950,8.190
-2.152,-2.005,2.571,-44.380,-434.070,-3.570
-2.196,-1.446,1.867,46.830,-581.910,7.910
-2.324,-1.190,0.697,59.500,-668.220,42.420
-2.558,-1.168,-0.355,73.570,-691.460,61.390
-2.693,-1.222,-0.794,68.600,-714.210,100.380
-2.729,-1.421,-1.754,64.470,-706.720,124.320
-2.612,-1.523,-2.319,144.620,-659.400,136.710
-2.471,-1.707,-2.412,86.520,-601.440,149.240
-2.293,-1.994,-2.929,47.740,-563.710,139.440
-1.904,-2.069,-3.373,46.970,-468.300,132.930
-1.719,-2.149,-3.444,88.550,-376.880,115.850
-1.747,-2.239,-3.381,103.880,-335.230,85.400
-1.675,-2.269,-3.717,62.300,-231.700,65.870
-1.407,-2.248,-3.747,92.470,-107.870,25.550
-1.338,-2.078,-3.328,154.770,-64.330,-6.440
-1.372,-1.983,-3.179,107.870,22.680,-20.860
-1.359,-1.807,-3.257,114.940,136.290,-50.540
-1.258,-1.663,-2.603,181.510,187.600,-64.400
-1.151,-1.332,-2.132,164.500,270.200,-63.140
-0.979,-1.173,-1.434,160.090,330.610,-53.060
-0.927,-1.137,-0.822,158.760,354.900,-42.280
-0.886,-1.106,-0.507,160.790,392.490,-38.220
-0.860,-1.119,0.153,162.120,410.060,-34.510
-0.826,-1.139,0.829,147.350,410.550,-35.000
-0.755,-1.177,1.124,129.080,394.660,-39.410
-0.723,-1.195,1.671,122.500,342.370,-47.110
-0.627,-1.195,2.157,95.830,326.410,-51.520
-0.528,-1.197,2.301,78.890,258.300,-62.440
-0.477,-1.173,2.514,61.110,219.520,-74.410
-0.367,-1.151,2.515,41.930,137.900,-80.430
-0.281,-1.062,2.436,35.070,62.370,-89.530
-0.242,-0.914,2.037,25.480,32.410,-93.380
-0.180,-0.841,1.529,31.640,-6.860,-93.240
-0.136,-0.735,1.339,28.980,-24.220,-91.630
-0.116,-0.702,0.986,22.400,-27.580,-89.040
-0.075,-0.667,0.846,16.240,-25.480,-88.620
-0.039,-0.653,0.640,11.760,-15.400,-89.110
-0.027,-0.639,0.537,5.110,-9.310,-90.650
0.005,-0.577,0.522,-4.200,2.450,-93.100
0.025,-0.456,0.537,-10.360,7.840,-92.540
0.077,-0.388,0.573,-21.770,15.750,-89.740
0.125,-0.254,0.593,-2.870,18.060,-77.350
0.141,-0.161,0.664,-11.480,16.870,-55.440
0.161,-0.145,0.748,-5.950,10.290,-42.770
0.161,-0.194,0.771,-7.420,0.840,-18.200
0.155,-0.339,0.778,-11.200,-3.850,0.420
0.138,-0.434,0.770,-16.520,-12.040,6.650
0.122,-0.622,0.756,-22.400,-18.970,14.280
0.121,-0.699,0.715,-31.570,-22.820,17.080
0.109,-0.834,0.690,-37.870,-29.680,17.150
0.105,-0.938,0.609,-41.860,-34.510,15.890
0.087,-0.976,0.496,-47.180,-35.350,14.910
0.067,-1.039,0.441,-49.140,-34.160,12.530
0.060,-1.095,0.365,-49.210,-32.340,9.870
0.048,-1.120,0.336,-50.260,-28.350,8.120
0.041,-1.172,0.334,-70.840,-24.290,4.900
0.041,-1.232,0.329,-58.170,-22.750,0.770
0.024,-1.262,0.331,-59.500,-21.910,-1.400
-0.018,-1.315,0.334,-59.430,-22.400,-7.070
-0.043,-1.335,0.322,-62.370,-22.330,-14.420
-0.079,-1.365,0.311,-71.120,-20.300,-18.970
-0.076,-1.372,0.279,-75.670,-17.080,-28.280
-0.064,-1.365,0.264,-79.520,-15.750,-37.170
-0.032,-1.340,0.271,-83.930,-14.210,-41.300
0.111,-1.305,0.282,-86.030,-13.790,-49.910
0.028,-1.281,0.290,-91.420,-14.210,-71.540
0.078,-1.215,0.287,-97.440,-16.310,-59.850
0.147,-1.147,0.214,-99.330,-0.070,-58.520
0.266,-1.156,0.183,-75.880,-15.400,-61.180
-0.019,-1.197,0.195,-87.500,-23.730,-79.870
-0.012,-1.074,0.053,-78.750,-29.260,-96.740
0.023,-0.955,-0.088,-61.810,-37.450,-99.540
0.091,-0.735,-0.171,-53.200,-42.350,-95.620
0.113,-0.608,-0.346,-37.100,-40.810,-81.760
0.134,-0.587,-0.426,-24.150,-29.330,-73.150
0.123,-0.635,-0.539,-17.570,-8.330,-56.630
0.120,-0.690,-0.556,-13.720,4.130,-43.960
0.086,-0.834,-0.533,-8.750,28.770,-39.480
0.051,-1.002,-0.417,-5.460,48.300,-35.420
-0.024,-1.090,-0.238,-4.900,55.930,-35.770
-0.074,-1.253,-0.156,-6.860,67.270,-41.230
-0.090,-1.389,-0.003,-8.120,71.890,-53.200
-0.111,-1.442,0.156,-13.440,78.750,-61.320
-0.095,-1.504,0.234,-16.520,81.620,-81.410
-0.069,-1.497,0.392,-21.630,80.500,-102.830
0.002,-1.466,0.593,-28.280,73.150,-112.700
0.097,-1.364,0.588,-30.940,58.730,-129.010
0.140,-1.235,0.655,-35.000,49.490,-140.350
0.197,-1.171,0.661,-42.630,30.380,-144.200
0.245,-1.051,0.602,-43.540,13.020,-148.820
0.274,-0.989,0.511,-37.450,4.760,-148.400
0.327,-0.884,0.476,-31.150,-9.450,-147.770
0.342,-0.840,0.434,-30.870,-20.440,-147.420
0.331,-0.827,0.392,-35.140,-25.480,-148.190
0.272,-0.799,0.355,-27.020,-36.190,-149.730
0.242,-0.769,0.293,-21.840,-42.000,-151.830
0.193,-0.752,0.223,-15.890,-51.520,-152.600
0.186,-0.715,0.176,-15.680,-58.030,-153.580
0.194,-0.682,0.056,-13.580,-59.360,-152.530
0.188,-0.670,-0.041,-18.620,-57.330,-151.200
0.174,-0.669,-0.102,-21.210,-52.640,-147.980
0.161,-0.688,-0.208,-25.410,-48.790,-144.550
0.149,-0.702,-0.257,-30.170,-37.590,-142.800
0.186,-0.729,-0.323,-33.250,-22.400,-140.210
0.173,-0.742,-0.346,-37.730,-12.810,-138.670
0.252,-0.735,-0.329,-47.530,7.280,-137.270
0.379,-0.706,-0.264,-53.830,27.860,-131.320
0.437,-0.684,-0.133,-61.390,37.030,-122.850
0.513,-0.630,-0.041,-66.710,49.140,-118.650
0.515,-0.579,0.178,-68.460,49.070,-109.690
0.518,-0.550,0.379,-66.220,43.680,-104.650
0.550,-0.497,0.452,-62.790,23.170,-92.820
0.569,-0.483,0.485,-62.090,0.770,-82.810

1.663,2.419,1.028,59.500,-12.180,110.390
1.481,2.533,0.979,86.870,-38.150,133.420
1.309,2.685,0.822,102.550,-61.040,190.260
1.217,2.715,0.577,141.330,-69.300,258.580
0.972,2.682,0.439,182.630,-75.880,294.770
0.550,2.495,0.184,204.050,-68.460,364.560
0.433,2.365,0.097,238.910,-63.070,398.090
0.210,2.199,0.081,253.120,-50.610,478.100
0.024,2.025,0.071,250.810,-43.260,567.840
-0.555,1.848,0.020,248.570,-31.080,610.400
-1.132,1.312,0.003,262.220,-20.860,686.280
-1.361,0.659,0.018,260.820,-15.610,753.690
-1.737,0.307,0.010,254.240,-1.120,785.400
-2.040,-0.528,-0.014,246.120,31.150,840.280
-2.164,-1.627,-0.116,224.140,59.010,865.760
-2.315,-2.242,-0.028,195.090,143.640,859.810
-2.466,-3.441,-0.026,168.210,249.970,817.320
-2.612,-4.654,0.349,97.370,300.370,718.480
-2.873,-5.258,0.684,39.340,360.780,640.920
-3.015,-6.176,1.492,27.930,346.080,439.530
-3.016,-6.409,2.111,8.680,322.980,207.200
-2.890,-6.265,2.398,-84.140,241.990,96.460
-2.969,-5.360,2.606,-125.020,117.880,-92.400
-2.928,-4.777,2.397,-92.820,40.250,-227.920
-2.712,-3.585,2.243,22.890,-126.070,-274.190
-2.363,-2.407,1.748,87.010,-275.660,-308.350
-2.237,-1.822,0.970,173.670,-330.890,-258.370
-2.007,-0.974,0.559,190.610,-396.830,-230.160
-1.873,-0.503,-0.238,185.640,-429.170,-139.510
-1.581,-0.399,-0.918,172.130,-409.010,-91.210
-1.432,-0.438,-1.213,188.860,-381.710,-5.320
-1.469,-0.762,-1.664,210.770,-359.730,47.530
-1.396,-0.938,-1.735,223.650,-309.330,64.680
-1.308,-1.279,-1.705,188.300,-258.160,81.480
-1.244,-1.645,-1.606,174.230,-238.840,74.060
-1.187,-1.793,-1.461,162.680,-211.540,63.280
-1.144,-1.980,-1.422,149.660,-193.130,29.400
-1.119,-1.999,-1.447,139.370,-185.220,-11.620
-1.070,-1.945,-1.613,129.920,-158.760,-32.200
-0.985,-1.732,-1.553,121.380,-121.660,-68.950
-0.915,-1.493,-1.689,136.640,-95.480,-93.660
-0.847,-1.310,-1.575,122.290,-49.770,-102.200
-0.898,-1.131,-1.445,94.850,1.260,-122.710
-0.850,-1.030,-1.451,97.020,32.620,-132.650
-0.720,-0.758,-1.320,86.100,102.060,-131.950
-0.537,-0.546,-0.965,72.660,168.770,-122.640
-0.572,-0.474,-0.540,56.840,198.730,-116.830
-0.569,-0.464,-0.270,50.260,245.000,-111.650
-0.538,-0.464,0.250,53.550,273.700,-109.270
-0.475,-0.453,0.829,70.910,279.510,-107.870
-0.411,-0.390,1.101,72.380,275.030,-99.890
-0.388,-0.334,1.575,73.360,265.160,-87.850
-0.339,-0.317,1.964,68.320,229.530,-80.500
-0.265,-0.310,2.097,39.340,178.780,-65.100
-0.232,-0.341,2.190,65.310,149.940,-50.680
-0.176,-0.350,2.253,63.910,88.340,-43.470
-0.124,-0.402,2.188,58.100,28.350,-31.430
-0.119,-0.511,1.865,57.820,3.850,-25.550
-0.116,-0.571,1.663,60.550,-31.290,-24.850
-0.095,-0.656,1.266,56.280,-48.300,-24.220
-0.089,-0.688,0.918,48.440,-51.030,-26.600
-0.081,-0.732,0.787,26.740,-45.990,-28.490
-0.073,-0.744,0.579,13.300,-31.290,-33.460
-0.051,-0.742,0.453,-2.940,-22.750,-35.560
-0.012,-0.713,0.431,-10.290,-7.140,-37.590
0.012,-0.672,0.474,-13.790,16.380,-35.910
0.054,-0.657,0.561,-20.090,4.690,-33.110
0.075,-0.658,0.601,-19.670,4.970,-27.790
0.079,-0.684,0.671,-24.290,4.690,-22.680
0.083,-0.703,0.724,-30.870,3.500,-20.650
0.064,-0.737,0.760,-35.630,-0.210,-15.960
0.053,-0.751,0.803,-42.700,-3.220,-10.080
0.029,-0.795,0.807,-45.430,-11.690,-6.790
0.015,-0.867,0.775,-47.600,-18.900,-1.820
0.006,-0.904,0.705,-52.220,-21.560,17.850
-0.033,-0.987,0.665,-56.490,-23.520,1.960
-0.054,-1.078,0.590,-58.590,-20.930,0.840
-0.081,-1.123,0.553,-62.580,-18.760,-1.750
-0.146,-1.221,0.531,-46.830,-14.350,-11.480
-0.140,-1.343,0.529,-34.720,-12.460,-29.050
-0.070,-1.370,0.609,-45.850,-8.120,-36.260
0.041,-1.322,0.647,-56.420,-13.020,-48.160
0.068,-1.259,0.690,-56.070,-18.480,-57.610
0.070,-1.220,0.657,-65.240,-24.360,-62.300
0.116,-1.096,0.617,-70.630,-31.430,-66.710
0.123,-0.891,0.531,-81.550,-33.390,-62.440
0.128,-0.892,0.453,-80.990,-34.020,-58.940
0.145,-0.877,0.344,-76.650,-32.830,-51.310
0.161,-0.894,0.301,-73.010,-31.850,-45.430
0.148,-0.977,0.285,-61.040,-31.430,-44.870
0.112,-1.083,0.291,-60.340,-32.410,-48.300
0.060,-1.123,0.241,-59.500,-31.990,-51.240
0.019,-1.191,0.212,-50.890,-28.700,-60.480
-0.002,-1.240,0.199,-47.460,-26.040,-72.380
-0.044,-1.258,0.228,-44.100,-20.790,-79.100
-0.072,-1.277,0.247,-42.980,-17.780,-92.960
-0.081,-1.271,0.286,-45.360,-17.570,-107.240
-0.108,-1.255,0.297,-47.740,-18.690,-113.960
-0.106,-1.198,0.288,-48.790,-20.020,-127.260
-0.077,-1.106,0.251,-54.460,-19.740,-139.160
0.027,-1.050,0.221,-63.910,-15.330,-143.360
0.160,-0.917,0.166,-67.550,-8.050,-145.670
0.223,-0.850,0.159,-73.850,-4.270,-139.370
0.315,-0.727,0.171,-78.260,0.070,-133.840
0.344,-0.646,0.200,-80.710,-0.070,-120.330
0.381,-0.629,0.204,-81.970,-2.030,-95.550
0.416,-0.631,0.202,-80.990,-6.720,-101.710
0.436,-0.658,0.182,-77.420,-9.660,-92.470
0.463,-0.670,0.152,-61.390,-18.620,-88.200
0.449,-0.693,0.133,-53.340,-27.930,-79.870
0.395,-0.734,0.082,-39.830,-29.750,-72.940
0.405,-0.754,0.023,-44.660,-35.420,-70.000
0.376,-0.831,-0.037,-46.690,-31.710,-65.310
0.374,-0.935,-0.136,-52.850,-26.950,-65.870
0.357,-0.996,-0.170,-56.000,-12.950,-68.460
0.332,-1.113,-0.196,-57.750,5.740,-78.960
0.330,-1.159,-0.133,-62.860,15.610,-96.250
0.283,-1.214,-0.072,-74.060,33.250,-107.240
0.232,-1.179,0.074,-80.780,44.800,-128.660

1.856,2.287,1.113,-12.670,97.300,175.910
1.809,2.370,1.287,-6.930,78.120,221.060
1.755,2.460,1.315,14.840,34.930,260.680
1.719,2.437,1.259,28.980,-4.200,316.540
1.600,2.379,1.062,56.840,-21.840,341.670
1.453,2.204,0.925,87.150,-41.860,386.750
1.374,1.982,0.615,92.540,-45.570,426.650
1.180,1.859,0.327,115.990,-41.580,444.570
0.980,1.595,0.215,128.170,-26.600,476.140
0.875,1.313,0.066,147.980,-16.030,503.650
0.646,1.176,0.035,149.100,10.640,516.390
0.386,0.877,0.043,143.010,44.030,540.750
0.287,0.514,0.164,125.370,61.320,563.430
0.133,0.303,0.264,106.400,95.340,574.140
-0.104,-0.202,0.514,101.290,134.820,594.580
-0.262,-0.485,0.896,62.370,159.040,614.110
-0.569,-1.159,1.073,6.440,214.410,619.710
-0.837,-1.890,1.528,-8.750,267.540,618.170
-1.031,-2.227,2.254,-65.170,285.320,592.200
-1.576,-2.875,2.595,-149.100,276.220,567.280
-1.912,-3.413,3.143,-182.420,213.150,487.060
-2.310,-3.629,3.345,-238.070,155.610,432.670
-2.595,-3.957,3.248,-229.950,-6.370,294.840
-2.726,-3.943,2.731,-191.800,-182.420,144.130
-2.723,-3.665,2.001,-166.460,-267.890,79.240
-2.857,-3.687,1.560,194.600,-531.720,-91.070
-2.885,-2.723,1.093,224.140,-654.780,-191.240
-3.127,-2.193,-0.605,278.530,-825.300,-212.380
-3.379,-1.372,-1.452,437.850,-886.620,-203.630
-3.333,-0.740,-2.521,472.500,-888.440,-126.630
-3.299,-0.567,-3.415,342.440,-862.190,-78.050
-3.034,-0.640,-4.057,289.590,-753.340,10.010
-2.832,-0.905,-5.137,294.350,-649.250,94.500
-2.346,-1.119,-5.535,276.640,-375.340,126.910
-2.177,-1.726,-5.583,245.070,-71.680,155.260
-2.029,-2.403,-5.265,219.240,90.860,139.370
-1.845,-2.620,-4.529,212.940,355.810,126.840
-1.761,-2.806,-2.650,197.400,507.290,91.140
-1.715,-2.669,-0.906,168.280,562.940,52.780
-1.641,-2.652,-0.122,147.700,559.650,32.760
-1.472,-2.549,1.221,164.290,403.340,-13.860
-1.368,-2.465,2.147,160.230,324.030,-55.790
-0.998,-2.251,2.337,139.650,148.540,-72.520
-0.697,-1.945,2.201,136.920,-4.200,-93.870
-0.640,-1.780,1.322,127.890,-50.960,-120.820
-0.655,-1.525,0.838,129.920,-82.880,-125.650
-0.683,-1.251,0.165,113.050,-56.420,-150.850
-0.660,-1.084,-0.217,80.080,-31.500,-160.790
-0.559,-0.715,-0.290,73.990,25.130,-175.350
-0.502,-0.326,-0.187,65.800,53.550,-179.690
-0.410,-0.130,0.048,46.480,106.610,-176.610
-0.315,0.233,0.206,47.460,145.740,-157.920
-0.259,0.518,0.644,42.210,158.760,-123.340
-0.152,0.612,1.018,42.140,172.340,-101.360
-0.065,0.664,1.251,50.050,160.720,-53.550
-0.032,0.535,1.644,26.180,148.400,-9.100
-0.033,0.402,1.707,46.340,115.010,9.310
-0.021,0.095,1.900,52.570,73.360,35.840
-0.010,-0.075,1.913,48.230,50.750,49.140
-0.116,-0.421,1.839,72.380,9.100,50.750
-0.150,-0.700,1.725,69.510,-26.600,47.390
-0.159,-0.806,1.481,56.980,-40.740,43.890
-0.156,-0.931,1.344,60.690,-65.660,37.870
-0.164,-1.039,1.036,70.910,-74.130,28.700
-0.172,-1.071,0.889,86.240,-88.760,24.710
-0.202,-1.089,0.813,50.050,-96.110,15.330
-0.209,-1.078,0.541,41.580,-96.810,6.090
-0.235,-1.056,0.334,33.740,-92.540,1.260
-0.260,-1.017,0.265,24.430,-84.420,-7.490
-0.267,-0.961,0.138,11.620,-78.610,-9.940
-0.178,-0.911,0.041,12.880,-57.820,-7.420
-0.155,-0.894,-0.005,19.390,-41.160,-1.120
-0.162,-0.900,0.061,16.730,-33.670,3.850
-0.188,-0.930,0.080,8.050,-20.160,6.160
-0.191,-0.963,0.108,5.250,-7.490,10.360
-0.176,-0.978,0.131,-2.170,-3.990,12.950
-0.150,-1.020,0.142,0.560,4.060,18.830
-0.143,-1.087,0.185,1.470,6.930,23.380
-0.137,-1.120,0.211,-1.680,12.530,24.850
-0.134,-1.192,0.213,-3.010,20.090,24.850
-0.137,-1.359,0.214,-3.360,24.430,18.690
-0.140,-1.309,0.217,-4.340,36.750,13.650
-0.149,-1.360,0.258,-6.930,50.750,-2.380
-0.158,-1.372,0.346,-16.660,57.750,-21.980
-0.163,-1.322,0.392,-30.660,69.510,-31.430
-0.158,-1.188,0.491,-43.050,80.010,-45.360
-0.151,-1.106,0.525,-46.410,84.910,-49.770
-0.126,-0.904,0.605,-54.180,91.490,-50.330
-0.102,-0.739,0.728,-59.850,92.330,-41.720
-0.030,-0.682,0.812,-60.480,91.140,-35.000
0.037,-0.616,0.868,-58.870,83.580,-17.990
0.075,-0.629,0.946,-59.780,77.560,-0.140
0.070,-0.689,0.923,-42.140,65.240,5.180
0.016,-0.825,0.926,-34.790,50.610,10.640
0.027,-0.919,0.925,-48.090,43.120,11.620
0.041,-0.965,0.879,-38.500,28.070,10.290
0.035,-1.059,0.851,-36.050,11.830,3.570
0.032,-1.112,0.776,-41.230,4.200,-9.450
0.028,-1.215,0.731,-51.870,-5.670,-18.200
0.019,-1.315,0.617,-58.240,-12.110,-38.220
-0.041,-1.363,0.472,-51.030,-15.750,-48.790
-0.094,-1.422,0.408,-39.900,-23.380,-69.790
-0.109,-1.440,0.260,-37.380,-26.250,-90.160
-0.113,-1.438,0.085,-35.910,-26.390,-100.380
-0.099,-1.419,0.002,-36.890,-18.270,-122.010
-0.082,-1.377,-0.150,-40.740,-10.640,-143.220
-0.036,-1.342,-0.229,-44.170,9.450,-152.670
0.001,-1.263,-0.232,-45.220,32.130,-166.390
0.025,-1.201,-0.183,-57.610,42.210,-176.540
0.082,-1.183,-0.172,-59.850,63.490,-180.950
0.133,-1.123,-0.046,-67.270,79.450,-189.140
0.156,-1.080,0.049,-77.490,85.680,-195.860
0.175,-0.956,0.099,-87.640,98.770,-198.100
0.162,-0.814,0.242,-95.410,108.500,-200.270
0.150,-0.748,0.338,-104.790,112.070,-197.400
0.134,-0.639,0.384,-94.150,114.520,-194.180
0.129,-0.584,0.474,-85.960,112.000,-183.470
0.138,-0.572,0.490,-76.370,109.970,-176.680
0.171,-0.594,0.447,-59.290,105.910,-162.120

